Folder: prieto_figure_making

Note: README.md
# eQCM
This is the code I used to import and plot eQCM characterization data. The data was collected using both a Gamry 3000 Potentiostat and a Gamry eQCM 10M https://www.gamry.com/support-2/legacy-devices/eqcm-quartz-crystal-microbalance-2/. 


Plotting for characterization data. Include anything from figure making to Rietveld refinements. If you have a new code to make beautiful figures for papers, please share.
## Python Tutorial:
#### Coding basics, importing, processing, and plotting battery related data
#### Complied by Nathan Neisius
### Objective:
By working through this tutorial, I hope that anybody with no prior coding experience can learn the basic of how to code in Python, as well as apply that code to some practically relevant processing and plotting of some battery data that we commonly collect in the Prieto research group.
### Branches:
PXRD, IR, Battery, UV-Vis
### Jupyter Notebooks: (These are worksheets containing Python code to learn from)
Python Tutorial.ipynb,   Learning the basics of programing with python.ipynb,   IR Figure Making.ipynb,   Rietveld Refinement-Standard Code.ipynb,   PXRD Standard Code.ipynb

Useful Codes for Battery Data.ipynb
### Data Files: (These example data files will be used by the Jupyter notebooks)
Gamry_EIS_Data.DTA,
Arbin_Cycling_Data.xlsx
Arbin_Cycling_Data_2.xlsx
Arbin_Cycling_Data_3.xlsx
### The Tutorial:
The document “Python Tutorial.ipynb” is a Jupyter notebook that can be treated like a worksheet for
learning Python and its data processing and plotting capabilities. It walks you through basic ideas
behind coding by explaining what bits of code do before and after you run them. Occasionally it will
prompt you to try filling in places left intentionally blank. There are answers filled in to these
portions in the “Answers.ipynb” document should you get stuck.
While it is hopefully detailed enough that you should be able to work through it on your own,
working through it with myself or another person familiar with Python will probably be more
educational.
### Installing Python on your computer:
I recommend downloading the most recent version of Python using Anaconda Python environments:

https://www.anaconda.com/download (Versions are available through other sites, but Kelly and I are more familar with this platfrom)

https://store.enthought.com/downloads/ 

Both come with many easily installable or already installed packages with all kinds of scientific tools, some of which we use in the tutorial.
### Code Sharing and Passing Along Knowledge:
Because the whole point of using code is to save you time on your data processing and to make
sweet looking figures, I’ve included a bunch of codes that I’ve found useful in my own battery
related research in “Useful Codes for Battery Data.ipynb”. Feel free to use them as you will. Take
them and modify them as much as you’d like to fit your specific application. I’m sure they can be
modified to be useful on non-battery related data. If you learn something c

File: JRG_01_105_121923_eQCM_CV-Sn-5mM-80C_NewRef_CV05.DTA
EXPLAIN
TAG	CVEQCM
TITLE	LABEL	Cyclic Voltammetry	Test &Identifier
DATE	LABEL	12/19/2023	Date
TIME	LABEL	12:42:37	Time
APPLICATION	LABEL	Resonator	Data &Acquisition Application
NOTES	NOTES	0	&Notes...
PSTAT	PSTAT	IFC1010-20111	Potentiostat
VINIT	POTEN	0.00000E+000	T	Initial &E (V)
VLIMIT1	POTEN	-9.00000E-001	F	Scan Limit &1 (V)
VLIMIT2	POTEN	-4.00000E-001	F	Scan Limit &2 (V)
VFINAL	POTEN	0.00000E+000	T	Final &E (V)
SCANRATE	QUANT	5.00000E+001	&Scan Rate (mV/s)
STEPSIZE	QUANT	2.00000E+000	St&ep Size (mV)
CYCLES	IQUANT	5	C&ycles (#)
IMODE	SELECTOR	0	I/E Range &Mode
IRANGE	QUANT	3.00000E+000	&Max Current (mA)
AREA	QUANT	2.09000E-001	Electrode &Area (cm^2)
AREAOVERLAP	QUANT	2.05000E-001	Area of &Overlap (cm^2)
CONDIT	TWOPARAM	F	0.00000E+000	0.00000E+000	Conditionin&g	Time(s)	E(V)
DELAY	TWOPARAM	T	3.00000E+001	0.00000E+000	Init. De&lay	Time(s)	Stab.(mV/s)
EQDELAY	QUANT	5.00000E+000	Equil. &Time (s)
IRCOMP	SELECTOR	0	IRCom&p
PFCOR	QUANT	0.00000E+000	PF Corr. (ohm)
SAMPLINGMODE	SELECTOR	1	Sampling &Mode
OCVCURVE	TABLE
	Pt	T	Vf	Vm	ACH	Over
	#	s	V vs. Ref.	V	V	bits
	0	0.250000	-6.08893E-001	-6.08893E-001	0.00000E+000	...........
	1	0.500000	-6.08894E-001	-6.08900E-001	0.00000E+000	...........
	2	0.750000	-6.08894E-001	-6.08911E-001	0.00000E+000	...........
	3	1.000000	-6.08897E-001	-6.08905E-001	0.00000E+000	...........
	4	1.250000	-6.08901E-001	-6.08908E-001	0.00000E+000	...........
	5	1.500000	-6.08905E-001	-6.08929E-001	0.00000E+000	...........
	6	1.750000	-6.08909E-001	-6.08933E-001	0.00000E+000	...........
	7	2.000000	-6.08915E-001	-6.08922E-001	0.00000E+000	...........
	8	2.250000	-6.08921E-001	-6.08913E-001	0.00000E+000	...........
	9	2.500000	-6.08923E-001	-6.08916E-001	0.00000E+000	...........
	10	2.750000	-6.08922E-001	-6.08924E-001	0.00000E+000	...........
	11	3.000000	-6.08920E-001	-6.08917E-001	0.00000E+000	...........
	12	3.250000	-6.08919E-001	-6.08915E-001	0.00000E+000	...........
	13	3.500000	-6.08919E-001	-6.08941E-001	0.00000E+000	...........
	14	3.750000	-6.08920E-001	-6.08931E-001	0.00000E+000	...........
	15	4.000000	-6.08924E-001	-6.08926E-001	0.00000E+000	...........
	16	4.250000	-6.08928E-001	-6.08935E-001	0.00000E+000	...........
	17	4.500000	-6.08931E-001	-6.08946E-001	0.00000E+000	...........
	18	4.750000	-6.08933E-001	-6.08951E-001	0.00000E+000	...........
	19	5.000000	-6.08937E-001	-6.08961E-001	0.00000E+000	...........
	20	5.250000	-6.08943E-001	-6.08945E-001	0.00000E+000	...........
	21	5.500000	-6.08949E-001	-6.08953E-001	0.00000E+000	...........
	22	5.750000	-6.08951E-001	-6.08954E-001	0.00000E+000	...........
	23	6.000000	-6.08952E-001	-6.08957E-001	0.00000E+000	...........
	24	6.250000	-6.08953E-001	-6.08948E-001	0.00000E+000	...........
	25	6.500000	-6.08953E-001	-6.08948E-001	0.00000E+000	...........
	26	6.750000	-6.08952E-001	-6.08948E-001	0.00000E+000	...........
	27	7.000000	-6.08951E-001	-6.08943E-001	0.00000E+000	...........
	28	7.250000	-6.08949E-001	-6.08966E-001	0.00000E+000	...........
	29	7.500000	-6.08950E-001	-6.08972E-001	0.00000E+000	...........
	30	7.750000	-6.08953E-001	-6.08967E-001	0.00000E+000	...........
	31	8.000000	-6.08960E-001	-6.08973E-001	0.00000E+000	...........
	32	8.250000	-6.08965E-001	-6.08978E-001	0.00000E+000	...........
	33	8.500000	-6.08970E-001	-6.08981E-001	0.00000E+000	...........
	34	8.750000	-6.08973E-001	-6.08976E-001	0.00000E+000	...........
	35	9.000000	-6.08976E-001	-6.08978E-001	0.00000E+000	...........
	36	9.250000	-6.08978E-001	-6.08985E-001	0.00000E+000	...........
	37	9.500000	-6.08979E-001	-6.08995E-001	0.00000E+000	...........
	38	9.750000	-6.08982E-001	-6.08994E-001	0.00000E+000	...........
	39	10	-6.08986E-001	-6.09004E-001	0.00000E+000	...........
	40	10.25	-6.08991E-001	-6.09007E-001	0.00000E+000	...........
	41	10.5	-6.08996E-001	-6.09001E-001	0.00000E+000	...........
	42	10.75	-6.09000E-001	-6.08998E-001	0.00000E+000	...........
	43	11	-6.09002E-001	-6.09002E-001	0.00000E+000	...........
	44	11.25	-6.09002E-001	-6.09006E-001	0.00000E+000	...........
	45	11.5	-6.09002E-001	-6.09007E-001	0.00000E+000	...........
	46	11.75	-6.09003E-001	-6.09012E-001	0.00000E+000	...........
	47	12	-6.09005E-001	-6.09009E-001	0.00000E+000	...........
	48	12.25	-6.09007E-001	-6.09015E-001	0.00000E+000	...........
	49	12.5	-6.09010E-001	-6.09018E-001	0.00000E+000	...........
	50	12.75	-6.09012E-001	-6.09023E-001	0.00000E+000	...........
	51	13	-6.09015E-001	-6.09014E-001	0.00000E+000	...........
	52	13.25	-6.09017E-001	-6.09033E-001	0.00000E+000	...........
	53	13.5	-6.09020E-001	-6.09039E-001	0.00000E+000	...........
	54	13.75	-6.09024E-001	-6.09030E-001	0.00000E+000	...........
	55	14	-6.09028E-001	-6.09049E-001	0.00000E+000	...........
	56	14.25	-6.09033E-001	-6.09030E-001	0.00000E+000	...........
	57	14.5	-6.09036E-001	-6.09024E-001	0.00000E+000	...........
	58	14.75	-6.09037E-001	-6.09063E-001	0.00000E+000	...........
	59	15	-6.09037E-001	-6.09035E-001	0.00000E+000	...........
	60	15.25	-6.09039E-001	-6.09037E-001	0.00000E+000	...........
	61	15.5	-6.09040E-001	-6.09029E-001	0.00000E+000	...........
	62	15.75	-6.09040E-001	-6.09050E-001	0.00000E+000	...........
	63	16	-6.09039E-001	-6.09046E-001	0.00000E+000	...........
	64	16.25	-6.09040E-001	-6.09037E-001	0.00000E+000	...........
	65	16.5	-6.09042E-001	-6.09056E-001	0.00000E+000	...........
	66	16.75	-6.09044E-001	-6.09063E-001	0.00000E+000	...........
	67	17	-6.09047E-001	-6.09044E-001	0.00000E+000	...........
	68	17.25	-6.09050E-001	-6.09050E-001	0.00000E+000	...........
	69	17.5	-6.09052E-001	-6.09057E-001	0.00000E+000	...........
	70	17.75	-6.09052E-001	-6.09060E-001	0.00000E+000	...........
	71	18	-6.09053E-001	-6.09060E-001	0.00000E+000	...........
	72	18.25	-6.09056E-001	-6.09069E-001	0.00000E+000	...........
	73	18.5	-6.09059E-001	-6.09061E-001	0.00000E+000	...........
	74	18.75	-6.09061E-001	-6.09059E-001	0.00000E+000	...........
	75	19	-6.09063E-001	-6.09070E-001	0.00000E+000	...........
	76	19.25	-6.09063E-001	-6.09069E-001	0.00000E+000	...........
	77	19.5	-6.09065E-001	-6.09086E-001	0.00000E+000	...........
	78	19.75	-6.09068E-001	-6.09084E-001	0.00000E+000	...........
	79	20	-6.09073E-001	-6.09068E-001	0.00000E+000	...........
	80	20.25	-6.09077E-001	-6.09079E-001	0.00000E+000	...........
	81	20.5	-6.09078E-001	-6.09091E-001	0.00000E+000	...........
	82	20.75	-6.09079E-001	-6.09082E-001	0.00000E+000	...........
	83	21	-6.09080E-001	-6.09074E-001	0.00000E+000	...........
	84	21.25	-6.09081E-001	-6.09076E-001	0.00000E+000	...........
	85	21.5	-6.09081E-001	-6.09081E-001	0.00000E+000	...........
	86	21.75	-6.09079E-001	-6.09081E-001	0.00000E+000	...........
	87	22	-6.09079E-001	-6.09078E-001	0.00000E+000	...........
	88	22.25	-6.09079E-001	-6.09085E-001	0.00000E+000	...........
	89	22.5	-6.09080E-001	-6.09068E-001	0.00000E+000	...........
	90	22.75	-6.09080E-001	-6.09084E-001	0.00000E+000	...........
	91	23	-6.09079E-001	-6.09082E-001	0.00000E+000	...........
	92	23.25	-6.09079E-001	-6.09111E-001	0.00000E+000	...........
	93	23.5	-6.09083E-001	-6.09092E-001	0.00000E+000	...........
	94	23.75	-6.09088E-001	-6.09086E-001	0.00000E+000	...........
	95	24	-6.09092E-001	-6.09094E-001	0.00000E+000	...........
	96	24.25	-6.09093E-001	-6.09090E-001	0.00000E+000	...........
	97	24.5	-6.09093E-001	-6.09100E-001	0.00000E+000	...........
	98	24.75	-6.09093E-001	-6.09100E-001	0.00000E+000	...........
	99	25	-6.09094E-001	-6.09101E-001	0.00000E+000	...........
	100	25.25	-6.09097E-001	-6.09114E-001	0.00000E+000	...........
	101	25.5	-6.09100E-001	-6.09107E-001	0.00000E+000	...........
	102	25.75	-6.09104E-001	-6.09102E-001	0.00000E+000	...........
	103	26	-6.09106E-001	-6.09115E-001	0.00000E+000	...........
	104	26.25	-6.09107E-001	-6.09107E-001	0.00000E+000	...........
	105	26.5	-6.09109E-001	-6.09125E-001	0.00000E+000	...........
	106	26.75	-6.09111E-001	-6.09113E-001	0.00000E+000	...........
	107	27	-6.09113E-001	-6.09124E-001	0.00000E+000	...........
	108	27.25	-6.09116E-001	-6.09137E-001	0.00000E+000	...........
	109	27.5	-6.09120E-001	-6.09127E-001	0.00000E+000	...........
	110	27.75	-6.09124E-001	-6.09124E-001	0.00000E+000	...........
	111	28	-6.09127E-001	-6.09126E-001	0.00000E+000	...........
	112	28.25	-6.09128E-001	-6.09123E-001	0.00000E+000	...........
	113	28.5	-6.09127E-001	-6.09129E-001	0.00000E+000	...........
	114	28.75	-6.09126E-001	-6.09139E-001	0.00000E+000	...........
	115	29	-6.09128E-001	-6.09142E-001	0.00000E+000	...........
	116	29.25	-6.09131E-001	-6.09145E-001	0.00000E+000	...........
	117	29.5	-6.09136E-001	-6.09129E-001	0.00000E+000	...........
	118	29.75	-6.09138E-001	-6.09136E-001	0.00000E+000	...........
	119	30	-6.09138E-001	-6.09128E-001	0.00000E+000	...........
QCMOCVOFFSETTIME	QUANT	887.692	QCM Offset Time (s)
QCMOCVCurve	DTABLE
	Pt	T	fs	fp	chisq	As	Ap
	#	s	MHz	MHz	arb	Mag	Mag
	1890	887.692	9.95183	9.96876	0.000	1.31564	1.38991
	1891	888.152	9.95188	9.96874	0.000	1.31577	1.38987
	1892	888.622	9.95187	9.96874	0.000	1.31578	1.38989
	1893	889.097	9.95188	9.96875	0.000	1.31579	1.38986
	1894	889.562	9.95188	9.96875	0.000	1.31575	1.38987
	1895	890.022	9.95187	9.96874	0.000	1.31578	1.3899
	1896	890.492	9.95188	9.96874	0.000	1.31575	1.38988
	1897	890.967	9.95187	9.96876	0.000	1.31578	1.38985
	1898	891.432	9.95188	9.96873	0.000	1.31576	1.38985
	1899	891.892	9.95187	9.96874	0.000	1.31574	1.38985
	1900	892.357	9.95186	9.96873	0.000	1.31578	1.38987
	1901	892.832	9.95186	9.96873	0.000	1.31576	1.38987
	1902	893.302	9.95186	9.96872	0.000	1.31575	1.38986
	1903	893.762	9.95187	9.96871	0.000	1.31572	1.38978
	1904	894.227	9.95185	9.96874	0.000	1.31574	1.38981
	1905	894.702	9.95186	9.96874	0.000	1.31574	1.38981
	1906	895.172	9.95186	9.96874	0.000	1.31573	1.38981
	1907	895.632	9.95186	9.9687	0.000	1.31571	1.3898
	1908	896.097	9.95185	9.96874	0.000	1.31569	1.38979
	1909	896.572	9.95185	9.96872	0.000	1.31572	1.38982
	1910	897.042	9.95185	9.96872	0.000	1.3157	1.38981
	1911	897.502	9.95184	9.96874	0.000	1.31576	1.3898
	1912	897.967	9.95185	9.96872	0.000	1.31572	1.38981
	1913	898.432	9.95184	9.96873	0.000	1.31566	1.38982
	1914	898.902	9.95185	9.96872	0.000	1.31569	1.38981
	1915	899.377	9.95185	9.9687	0.000	1.3157	1.38979
	1916	899.842	9.95184	9.96871	0.000	1.31569	1.38978
	1917	900.302	9.95185	9.9687	0.000	1.31569	1.38978
	1918	900.772	9.95184	9.9687	0.000	1.3157	1.38978
	1919	901.247	9.95184	9.9687	0.000	1.31566	1.38977
	1920	901.712	9.95184	9.96872	0.000	1.31564	1.38973
	1921	902.172	9.95184	9.96871	0.000	1.31569	1.38978
	1922	902.642	9.95183	9.9687	0.000	1.31568	1.38976
	1923	903.117	9.95183	9.9687	0.000	1.31571	1.3898
	1924	903.582	9.95183	9.9687	0.000	1.31567	1.38975
	1925	904.042	9.95184	9.96871	0.000	1.31565	1.38974
	1926	904.512	9.95182	9.96869	0.000	1.31571	1.3898
	1927	904.987	9.95182	9.96869	0.000	1.31568	1.38975
	1928	905.452	9.95182	9.9687	0.000	1.31564	1.38971
	1929	905.912	9.95182	9.96869	0.000	1.31567	1.38975
	1930	906.377	9.95182	9.9687	0.000	1.31568	1.38975
	1931	906.852	9.95183	9.96867	0.000	1.31563	1.38974
	1932	907.322	9.95182	9.96869	0.000	1.3157	1.38974
	1933	907.782	9.95182	9.96868	0.000	1.31568	1.38974
	1934	908.247	9.95182	9.96867	0.000	1.31566	1.3897
	1935	908.722	9.95182	9.96868	0.000	1.31566	1.38972
	1936	909.192	9.95182	9.96869	0.000	1.31565	1.38968
	1937	909.652	9.95181	9.96868	0.000	1.31568	1.38974
	1938	910.117	9.95182	9.96868	0.000	1.3156	1.3897
	1939	910.592	9.95182	9.96867	0.000	1.31561	1.38968
	1940	911.062	9.95181	9.96867	0.000	1.31566	1.38973
	1941	911.522	9.95181	9.96866	0.000	1.31563	1.38972
	1942	911.987	9.95181	9.96866	0.000	1.31564	1.38974
	1943	912.452	9.9518	9.96866	0.000	1.31568	1.38974
	1944	912.922	9.9518	9.96868	0.000	1.31564	1.38972
	1945	913.392	9.9518	9.96868	0.000	1.31564	1.38973
	1946	913.862	9.95181	9.96866	0.000	1.31565	1.3897
	1947	914.337	9.9518	9.96867	0.000	1.31567	1.38971
	1948	914.812	9.9518	9.96866	0.000	1.31562	1.38971
	1949	915.282	9.9518	9.96867	0.000	1.31564	1.38965
	1950	915.742	9.9518	9.96865	0.000	1.31564	1.3897
	1951	916.207	9.9518	9.96865	0.000	1.31566	1.3897
	1952	916.682	9.95179	9.96866	0.000	1.31565	1.3897
	1953	917.152	9.95179	9.96866	0.000	1.3156	1.38966
EOC	QUANT	-6.09138E-001	Open Circuit (V)
PSTATMODEL	IQUANT	64	PstatModel
PSTATSECTION	LABEL	IFC1010-20111	Pstat Section
PSTATSERIALNO	LABEL	20111	Pstat Serial Number
CTRLMODE	IQUANT	1	Control Mode
IESTAB	IQUANT	2	I/E Stability
CASPEED	IQUANT	6	Control Amp Speed
CONVENTION	IQUANT	1	Current Convention
ICHRANGE	IQUANT	2	Ich Range
ICHRANGEMODE	TOGGLE	T	Ich Auto Range
ICHOFFSETENABLE	TOGGLE	F	Ich Offset Enable
ICHOFFSET	QUANT	0.000000	Ich Offset (V)
ICHFILTER	IQUANT	3	Ich Filter
VCHRANGE	IQUANT	2	Vch Range
VCHRANGEMODE	TOGGLE	T	Vch Auto Range
VCHOFFSETENABLE	TOGGLE	F	Vch Offset Enable
VCHOFFSET	QUANT	0.000000	Vch Offset (V)
VCHFILTER	IQUANT	3	Vch Filter
ACHRANGE	IQUANT	2	Ach Range
IERANGELOWERLIMIT	IQUANT	4	I/E Range Lower Limit
IERANGEMODE	TOGGLE	F	I/E AutoRange
IERANGE	IQUANT	11	I/E Range
POSFEEDENABLE	TOGGLE	F	Positive Feedback IR Comp
POSFEEDRESISTANCE	QUANT	0.000000	Positive Feedback Resistance (ohm)
DCCALDATE	LABEL	12/5/2022	DC Calibration Date
ACCALDATE	LABEL	12/17/2017	AC Calibration Date
FRAMEWORKVERSION	QUANT	7.06	Framework Version
CURVE1	TABLE
	Pt	T	Q	Vf	Im	Vu	Sig	ACH	IERange	Over
	#	s	C	V vs. Ref.	A	V	V	V	#	bits
	120	0.040000	8.37392E-004	-6.09689E-001	-2.31198E-006	0.00000E+000	-6.09135E-001	0.00000E+000	10	...........
	125	0.240000	8.33324E-004	-6.19739E-001	-3.17049E-005	0.00000E+000	-6.19135E-001	0.00000E+000	8	...........
	130	0.440000	8.23244E-004	-6.29801E-001	-6.33243E-005	0.00000E+000	-6.29135E-001	0.00000E+000	8	...........
	135	0.640000	8.06376E-004	-6.39714E-001	-9.71378E-005	0.00000E+000	-6.39136E-001	0.00000E+000	9	...........
	140	0.840000	7.82159E-004	-6.49758E-001	-1.36269E-004	0.00000E+000	-6.49136E-001	0.00000E+000	9	...........
	145	1.040000	7.50368E-004	-6.59778E-001	-1.73487E-004	0.00000E+000	-6.59136E-001	0.00000E+000	9	...........
	150	1.240000	7.11699E-004	-6.69805E-001	-2.04313E-004	0.00000E+000	-6.69136E-001	0.00000E+000	9	...........
	155	1.440000	6.68708E-004	-6.79826E-001	-2.19879E-004	0.00000E+000	-6.79136E-001	0.00000E+000	9	...........
	160	1.640000	6.23772E-004	-6.89823E-001	-2.27327E-004	0.00000E+000	-6.89137E-001	0.00000E+000	9	...........
	165	1.840000	5.77494E-004	-6.99836E-001	-2.33973E-004	0.00000E+000	-6.99137E-001	0.00000E+000	9	...........
	170	2.040000	5.29756E-004	-7.09830E-001	-2.41764E-004	0.00000E+000	-7.09137E-001	0.00000E+000	9	...........
	175	2.240000	4.80319E-004	-7.19870E-001	-2.50808E-004	0.00000E+000	-7.19137E-001	0.00000E+000	9	...........
	180	2.440000	4.28980E-004	-7.29858E-001	-2.60632E-004	0.00000E+000	-7.29137E-001	0.00000E+000	9	...........
	185	2.640000	3.75605E-004	-7.39896E-001	-2.71028E-004	0.00000E+000	-7.39137E-001	0.00000E+000	9	...........
	190	2.840000	3.20110E-004	-7.49916E-001	-2.81777E-004	0.00000E+000	-7.49138E-001	0.00000E+000	9	...........
	195	3.040000	2.62475E-004	-7.59931E-001	-2.92462E-004	0.00000E+000	-7.59138E-001	0.00000E+000	9	...........
	200	3.240000	2.02724E-004	-7.69941E-001	-3.02909E-004	0.00000E+000	-7.69138E-001	0.00000E+000	9	...........
	205	3.440000	1.40921E-004	-7.79959E-001	-3.13050E-004	0.00000E+000	-7.79138E-001	0.00000E+000	9	...........
	210	3.640000	7.71507E-005	-7.89959E-001	-3.22674E-004	0.00000E+000	-7.89138E-001	0.00000E+000	9	...........
	215	3.840000	1.15048E-005	-8.00009E-001	-3.31895E-004	0.00000E+000	-7.99138E-001	0.00000E+000	9	...........
	220	4.040000	-5.59227E-005	-8.10007E-001	-3.40584E-004	0.00000E+000	-8.09139E-001	0.00000E+000	9	...........
	225	4.240000	-1.25027E-004	-8.20004E-001	-3.48774E-004	0.00000E+000	-8.19139E-001	0.00000E+000	9	...........
	230	4.440000	-1.95688E-004	-8.30033E-001	-3.56262E-004	0.00000E+000	-8.29139E-001	0.00000E+000	9	...........
	235	4.640000	-2.67771E-004	-8.40038E-001	-3.63067E-004	0.00000E+000	-8.39139E-001	0.00000E+000	9	...........
	240	4.840000	-3.41110E-004	-8.50060E-001	-3.69029E-004	0.00000E+000	-8.49139E-001	0.00000E+000	9	...........
	245	5.040000	-4.15523E-004	-8.60085E-001	-3.74044E-004	0.00000E+000	-8.59140E-001	0.00000E+000	9	...........
	250	5.240000	-4.90857E-004	-8.70082E-001	-3.78380E-004	0.00000E+000	-8.69140E-001	0.00000E+000	9	...........
	255	5.440000	-5.66967E-004	-8.80106E-001	-3.81938E-004	0.00000E+000	-8.79140E-001	0.00000E+000	9	...........
	260	5.640000	-6.43663E-004	-8.90110E-001	-3.84435E-004	0.00000E+000	-8.89140E-001	0.00000E+000	9	...........
	265	5.840000	-7.20713E-004	-9.00141E-001	-3.85684E-004	0.00000E+000	-8.99140E-001	0.00000E+000	9	...........
	270	6.040000	-7.95235E-004	-8.90114E-001	-3.65020E-004	0.00000E+000	-8.89140E-001	0.00000E+000	9	...........
	275	6.240000	-8.66233E-004	-8.80090E-001	-3.48682E-004	0.00000E+000	-8.79140E-001	0.00000E+000	9	...........
	280	6.440000	-9.34173E-004	-8.70055E-001	-3.33999E-004	0.00000E+000	-8.69140E-001	0.00000E+000	9	...........
	285	6.640000	-9.99319E-004	-8.60050E-001	-3.20399E-004	0.00000E+000	-8.59140E-001	0.00000E+000	9	...........
	290	6.840000	-1.06185E-003	-8.50051E-001	-3.07616E-004	0.00000E+000	-8.49139E-001	0.00000E+000	9	...........
	295	7.040000	-1.12187E-003	-8.40018E-001	-2.95283E-004	0.00000E+000	-8.39139E-001	0.00000E+000	9	...........
	300	7.240000	-1.17948E-003	-8.30007E-001	-2.83311E-004	0.00000E+000	-8.29139E-001	0.00000E+000	9	...........
[...]
	2570	98.04	6.13625E-004	-5.10412E-001	9.02114E-005	0.00000E+000	-5.09995E-001	0.00000E+000	9	...........
	2572	98.12	6.20500E-004	-5.14430E-001	8.45073E-005	0.00000E+000	-5.14002E-001	0.00000E+000	9	...........
	2574	98.2	6.26935E-004	-5.18416E-001	7.87363E-005	0.00000E+000	-5.17997E-001	0.00000E+000	9	...........
	2576	98.28	6.32927E-004	-5.22556E-001	7.25401E-005	0.00000E+000	-5.22005E-001	0.00000E+000	8	...........
	2578	98.36	6.38350E-004	-5.26590E-001	6.63158E-005	0.00000E+000	-5.26000E-001	0.00000E+000	8	...........
	2580	98.44	6.43293E-004	-5.30602E-001	6.03922E-005	0.00000E+000	-5.29995E-001	0.00000E+000	8	...........
	2582	98.52	6.47792E-004	-5.34607E-001	5.48889E-005	0.00000E+000	-5.34003E-001	0.00000E+000	8	...........
	2584	98.6	6.51899E-004	-5.38581E-001	5.01496E-005	0.00000E+000	-5.37998E-001	0.00000E+000	8	...........
	2586	98.68	6.55656E-004	-5.42608E-001	4.60346E-005	0.00000E+000	-5.42005E-001	0.00000E+000	8	...........
	2588	98.76	6.59088E-004	-5.46628E-001	4.20353E-005	0.00000E+000	-5.46000E-001	0.00000E+000	8	...........
	2590	98.84	6.62144E-004	-5.50617E-001	3.69143E-005	0.00000E+000	-5.49995E-001	0.00000E+000	8	...........
	2592	98.92	6.64698E-004	-5.54631E-001	3.01181E-005	0.00000E+000	-5.54003E-001	0.00000E+000	8	...........
	2594	99	6.66676E-004	-5.58615E-001	2.26487E-005	0.00000E+000	-5.57998E-001	0.00000E+000	8	...........
	2596	99.08	6.68023E-004	-5.62616E-001	1.47354E-005	0.00000E+000	-5.62006E-001	0.00000E+000	8	...........
	2598	99.16	6.68714E-004	-5.66651E-001	6.60586E-006	0.00000E+000	-5.66001E-001	0.00000E+000	8	...........
	2600	99.24	6.68245E-004	-5.70917E-001	-8.04773E-006	0.00000E+000	-5.69996E-001	0.00000E+000	7	...........
	2602	99.32	6.67529E-004	-5.74543E-001	-6.95993E-006	0.00000E+000	-5.74003E-001	0.00000E+000	8	...........
	2604	99.4	6.66501E-004	-5.78520E-001	-1.47680E-005	0.00000E+000	-5.77998E-001	0.00000E+000	8	...........
	2606	99.48	6.64569E-004	-5.82644E-001	-2.62521E-005	0.00000E+000	-5.82006E-001	0.00000E+000	8	...........
	2608	99.56	6.61967E-004	-5.86676E-001	-3.43576E-005	0.00000E+000	-5.86001E-001	0.00000E+000	8	...........
	2610	99.64	6.58733E-004	-5.90690E-001	-4.22666E-005	0.00000E+000	-5.89996E-001	0.00000E+000	8	...........
	2612	99.72	6.54882E-004	-5.94692E-001	-5.00709E-005	0.00000E+000	-5.94004E-001	0.00000E+000	8	...........
	2614	99.8	6.50429E-004	-5.98685E-001	-5.76933E-005	0.00000E+000	-5.97999E-001	0.00000E+000	8	...........
	2616	99.88	6.45361E-004	-6.02673E-001	-6.53855E-005	0.00000E+000	-6.01994E-001	0.00000E+000	8	...........
	2618	99.96	6.39645E-004	-6.06705E-001	-7.35065E-005	0.00000E+000	-6.06001E-001	0.00000E+000	8	...........
	2620	100.04	6.33251E-004	-6.10714E-001	-8.20654E-005	0.00000E+000	-6.09997E-001	0.00000E+000	8	...........
QCMDESCRIPTION	LABEL		Description
QCMDB	LABEL	Resonator_db	QCM Database
QCMOFFSETTIME	QUANT	917.612	QCM Offset Time (s)
CALIBRATIONFACTOR	QUANT	226	Calibration Factor (Hz cm^2/ug)
QCMCurve	DTABLE
	Pt	T	fs	fp	chisq	As	Ap
	#	s	MHz	MHz	arb	Mag	Mag
	1954	917.612	9.9518	9.96865	0.000	1.31564	1.38969
	1956	918.542	9.95175	9.96859	0.000	1.32139	1.39572
	1958	919.482	9.95169	9.96853	0.000	1.32143	1.39575
	1960	920.427	9.95163	9.96847	0.000	1.32141	1.39575
	1962	921.362	9.9516	9.96843	0.000	1.32147	1.3958
	1964	922.297	9.95158	9.96838	0.000	1.32151	1.39586
	1966	923.222	9.95155	9.96835	0.000	1.32165	1.39598
	1968	924.167	9.95151	9.96834	0.000	1.32167	1.39607
	1970	925.102	9.9515	9.96829	0.000	1.32177	1.39615
	1972	926.037	9.95149	9.96828	0.000	1.3218	1.39617
	1974	926.967	9.95145	9.96827	0.000	1.32191	1.39623
	1976	927.907	9.95144	9.96825	0.000	1.32187	1.39622
	1978	928.842	9.95143	9.96827	0.000	1.3218	1.39611
	1980	929.792	9.95147	9.96827	0.000	1.32172	1.39605
	1982	930.737	9.95158	9.96845	0.000	1.32158	1.3959
	1984	931.672	9.95169	9.96853	0.000	1.3215	1.3959
	1986	932.632	9.95174	9.96859	0.000	1.32148	1.39587
	1988	933.582	9.9518	9.96866	0.000	1.32149	1.39588
	1990	934.522	9.95188	9.96873	0.000	1.32141	1.39589
	1992	935.452	9.95187	9.96873	0.000	1.32146	1.39589
	1994	936.382	9.95182	9.96867	0.000	1.32146	1.39585
	1996	937.322	9.95179	9.96863	0.000	1.32143	1.39581
	1998	938.252	9.95175	9.96858	0.000	1.32145	1.39584
	2000	939.192	9.95169	9.96853	0.000	1.32146	1.39584
	2002	940.122	9.95164	9.96844	0.000	1.32146	1.39578
	2004	941.062	9.95158	9.96843	0.000	1.32146	1.39582
	2006	942.007	9.95155	9.96836	0.000	1.3215	1.39587
	2008	942.942	9.95151	9.96832	0.000	1.32161	1.39594
	2010	943.877	9.95148	9.9683	0.000	1.32167	1.39599
	2012	944.822	9.95144	9.96829	0.000	1.32175	1.39613
	2014	945.747	9.95143	9.96824	0.000	1.32186	1.39626
	2016	946.692	9.95141	9.96821	0.000	1.32191	1.39627
	2018	947.617	9.95139	9.96819	0.000	1.32191	1.39626
	2020	948.562	9.95138	9.96817	0.000	1.3219	1.39622
	2022	949.487	9.95138	9.96819	0.000	1.32181	1.39612
	2024	950.422	9.95147	9.9683	0.000	1.32171	1.39603
	2026	951.357	9.95161	9.96843	0.000	1.32163	1.396
	2028	952.287	9.95168	9.96852	0.000	1.32152	1.39593
	2030	953.232	9.95174	9.96861	0.000	1.32149	1.39594
	2032	954.157	9.95182	9.96868	0.000	1.32153	1.396
	2034	955.092	9.95184	9.96866	0.000	1.32144	1.39595
	2036	956.027	9.9518	9.96862	0.000	1.32154	1.39596
	2038	956.962	9.95176	9.96861	0.000	1.32146	1.39584
	2040	957.897	9.95172	9.96857	0.000	1.32148	1.39586
	2042	958.832	9.95167	9.96851	0.000	1.32149	1.39584
	2044	959.767	9.9516	9.96845	0.000	1.32152	1.39586
	2046	960.692	9.95155	9.96837	0.000	1.32156	1.39587
	2048	961.637	9.95151	9.96832	0.000	1.3216	1.39592
	2050	962.562	9.95148	9.96828	0.000	1.32165	1.39601
	2052	963.507	9.95144	9.96824	0.000	1.32171	1.39604
	2054	964.432	9.95142	9.96822	0.000	1.32173	1.3961
	2056	965.377	9.95138	9.9682	0.000	1.32182	1.39621
	2058	966.302	9.95136	9.96816	0.000	1.32194	1.39632
	2060	967.242	9.95133	9.96815	0.000	1.322	1.39636
	2062	968.177	9.95132	9.96812	0.000	1.32196	1.39632
	2064	969.102	9.95132	9.9681	0.000	1.32193	1.39625
	2066	970.047	9.95136	9.96818	0.000	1.32184	1.39617
	2068	970.972	9.95151	9.96836	0.000	1.32171	1.39609
	2070	971.912	9.95162	9.96845	0.000	1.32164	1.39605
	2072	972.842	9.95168	9.96851	0.000	1.32162	1.39601
	2074	973.782	9.95175	9.9686	0.000	1.32161	1.39606
	2076	974.712	9.9518	9.96863	0.000	1.32156	1.39604
	2078	975.642	9.95177	9.96861	0.000	1.32155	1.39603
	2080	976.582	9.95172	9.96856	0.000	1.3216	1.396
	2082	977.512	9.95169	9.96852	0.000	1.32159	1.39595
	2084	978.452	9.95166	9.96848	0.000	1.32159	1.39594
	2086	979.382	9.95159	9.96841	0.000	1.32164	1.39595
	2088	980.322	9.95153	9.96833	0.000	1.32163	1.39597
	2090	981.252	9.95147	9.96829	0.000	1.32165	1.39594
	2092	982.192	9.95144	9.96825	0.000	1.32166	1.39598
	2094	983.137	9.95139	9.96822	0.000	1.32174	1.39609
	2096	984.097	9.95138	9.96816	0.000	1.32175	1.3961
	2098	985.022	9.95135	9.96814	0.000	1.32184	1.3962
	2100	985.967	9.95134	9.96811	0.000	1.32193	1.39628
	2102	986.892	9.95131	9.96807	0.000	1.32198	1.39632
	2104	987.837	9.95128	9.96806	0.000	1.32204	1.39633
	2106	988.762	9.95126	9.96805	0.000	1.32194	1.39627
	2108	989.702	9.95129	9.96808	0.000	1.32187	1.39616
	2110	990.632	9.95139	9.96824	0.000	1.32177	1.39613
	2112	991.572	9.95154	9.96837	0.000	1.32173	1.39609
	2114	992.502	9.9516	9.96843	0.000	1.32163	1.39606
	2116	993.432	9.95167	9.96852	0.000	1.32153	1.39599
	2118	994.372	9.95175	9.96858	0.000	1.32154	1.396
	2120	995.302	9.95175	9.9686	0.000	1.32153	1.39599
	2122	996.242	9.9517	9.96853	0.000	1.32159	1.39597
	2124	997.172	9.95166	9.9685	0.000	1.32156	1.39592
	2126	998.112	9.95164	9.96844	0.000	1.32153	1.39587
	2128	999.042	9.95157	9.96839	0.000	1.32156	1.39589
	2130	999.972	9.9515	9.96832	0.000	1.32158	1.39587
	2132	1000.9	9.95144	9.96827	0.000	1.32158	1.39589
	2134	1001.84	9.95139	9.96821	0.000	1.32163	1.39596
	2136	1002.77	9.95137	9.96814	0.000	1.32171	1.39601
	2138	1003.71	9.95133	9.96812	0.000	1.32171	1.39602
	2140	1004.64	9.9513	9.96811	0.000	1.32173	1.3961
	2142	1005.58	9.95128	9.96807	0.000	1.32186	1.39618
	2144	1006.51	9.95126	9.96803	0.000	1.32192	1.39627
	2146	1007.44	9.95123	9.96801	0.000	1.322	1.3963
	2148	1008.38	9.95122	9.96799	0.000	1.32195	1.39625
	2150	1009.31	9.95123	9.968	0.000	1.32191	1.39616
	2152	1010.25	9.95128	9.9681	0.000	1.32179	1.3961
	2154	1011.18	9.95145	9.96828	0.000	1.32167	1.39603
	2156	1012.12	9.95153	9.96836	0.000	1.3216	1.39598
	2158	1013.05	9.95159	9.96843	0.000	1.32157	1.39599
	2160	1013.99	9.95168	9.96854	0.000	1.3215	1.39601
	2162	1014.92	9.95171	9.96855	0.000	1.32153	1.39598
	2164	1015.86	9.95168	9.9685	0.000	1.32155	1.39596
	2166	1016.79	9.95164	9.96845	0.000	1.32152	1.39589
	2167	1017.25	9.95162	9.96843	0.000	1.32151	1.3959